Folder: fin-ops/downloader-data

File: TGA.csv
Date,Close,Volume
2020-10-27,0.4,122300
2020-10-28,0.39,128100
2020-10-29,0.38,157500
2020-10-30,0.39,161800
2020-11-02,0.39,152600
2020-11-03,0.42,83200
2020-11-04,0.41,41900
2020-11-05,0.42,149500
2020-11-06,0.43,92100
2020-11-09,0.42,1091500
2020-11-10,0.43,270500
2020-11-11,0.44,445300
2020-11-12,0.43,65000
2020-11-13,0.43,154200
2020-11-16,0.44,386100
2020-11-17,0.42,304700
2020-11-18,0.45,347300
2020-11-19,0.46,268400
2020-11-20,0.47,145800
2020-11-23,0.48,206800
2020-11-24,0.49,806500
2020-11-25,0.53,737000
2020-11-27,0.53,321300
2020-11-30,0.51,175800
2020-12-01,0.5,167200
2020-12-02,0.51,371700
2020-12-03,0.64,21854500
2020-12-04,0.73,2558500
2020-12-07,0.83,2286000
2020-12-08,0.88,1018200
2020-12-09,0.94,797100
2020-12-10,1.02,817900
2020-12-11,0.93,839000
2020-12-14,0.93,721100
2020-12-15,0.95,284000
2020-12-16,0.92,184900
2020-12-17,0.95,264000
2020-12-18,0.9,511000
2020-12-21,0.83,634000
2020-12-22,0.88,264200
2020-12-23,0.95,201100
2020-12-24,1.01,150000
2020-12-28,0.95,241200
2020-12-29,0.9,181600
2020-12-30,0.87,544600
2020-12-31,0.96,402400
2021-01-04,0.91,306600
2021-01-05,0.95,393700
2021-01-06,0.99,507000
2021-01-07,1.0,314000
2021-01-08,1.14,1004400
2021-01-11,1.11,396800
2021-01-12,1.16,407500
2021-01-13,1.12,388100
2021-01-14,1.18,639600
2021-01-15,1.17,449000
2021-01-19,1.15,385000
2021-01-20,1.13,893900
2021-01-21,1.15,890900
2021-01-22,1.11,333600
2021-01-25,1.08,298200
2021-01-26,1.05,305400
2021-01-27,1.03,438500
2021-01-28,1.07,1005000
2021-01-29,1.04,702400
2021-02-01,1.1,236400
2021-02-02,1.13,468600
2021-02-03,1.22,1161100
2021-02-04,1.23,860500
2021-02-05,1.27,324100
2021-02-08,1.32,907700
2021-02-09,1.36,830800
2021-02-10,1.39,976500
2021-02-11,1.39,514200
2021-02-12,1.4,487600
2021-02-16,1.43,686900
2021-02-17,1.39,623600
2021-02-18,1.38,296100
2021-02-19,1.38,252300
2021-02-22,1.47,439300
2021-02-23,1.48,464300
2021-02-24,1.58,780700
2021-02-25,1.45,539200
2021-02-26,1.45,371600
2021-03-01,1.5,506400
2021-03-02,1.47,381600
2021-03-03,1.47,338900
2021-03-04,1.46,763400
2021-03-05,1.52,614300
2021-03-08,1.52,226600
2021-03-09,1.55,257200
2021-03-10,1.59,510800
2021-03-11,1.72,759200
2021-03-12,1.67,257300
2021-03-15,1.81,923800
2021-03-16,1.77,469600
2021-03-17,1.7,377200
2021-03-18,1.62,474400
2021-03-19,1.68,345300
2021-03-22,1.65,200500
2021-03-23,1.57,447800
2021-03-24,1.6,323000
2021-03-25,1.6,291300
2021-03-26,1.65,253900
2021-03-29,1.54,197300
2021-03-30,1.54,83300
2021-03-31,1.58,95600
2021-04-01,1.61,298700
2021-04-05,1.55,498800
2021-04-06,1.51,438200
2021-04-07,1.46,233300
2021-04-08,1.5,131500
2021-04-09,1.47,182900
2021-04-12,1.46,257500
2021-04-13,1.47,331500
2021-04-14,1.58,171900
2021-04-15,1.59,141200
2021-04-16,1.53,196400
2021-04-19,1.54,88200
2021-04-20,1.5,102800
2021-04-21,1.5,99300
2021-04-22,1.45,118900
2021-04-23,1.53,62300
2021-04-26,1.54,72000
2021-04-27,1.55,145400
2021-04-28,1.61,198400
2021-04-29,1.65,209200
2021-04-30,1.59,103000
2021-05-03,1.59,105000
2021-05-04,1.61,198300
2021-05-05,1.67,248500
2021-05-06,1.62,68600
2021-05-07,1.56,486400
2021-05-10,1.53,300700
2021-05-11,1.54,448800
2021-05-12,1.53,277400
2021-05-13,1.49,244800
2021-05-14,1.57,146300
2021-05-17,1.66,249500
2021-05-18,1.77,531500
2021-05-19,1.77,356400
2021-05-20,1.75,141600
2021-05-21,1.78,145200
2021-05-24,1.79,248400
2021-05-25,1.71,247600
2021-05-26,1.72,208000
2021-05-27,1.75,291800
2021-05-28,1.7,162700
2021-06-01,1.78,735200
2021-06-02,1.88,646900
2021-06-03,1.9,461800
2021-06-04,1.88,339000
2021-06-07,1.91,217000
2021-06-08,1.95,307900
2021-06-09,1.91,144400
2021-06-10,1.9,252800
2021-06-11,1.88,304500
2021-06-14,1.84,176200
2021-06-15,1.85,150600
2021-06-16,1.93,333500
2021-06-17,1.87,410500
2021-06-18,1.82,439700
2021-06-21,1.9,322500
2021-06-22,1.86,292000
2021-06-23,1.93,648600
2021-06-24,2.16,867000
2021-06-25,2.16,1407000
2021-06-28,2.0,983500
2021-06-29,1.93,473200
2021-06-30,1.93,274300
2021-07-01,2.0,463800
2021-07-02,1.98,294700
2021-07-06,1.94,319900
2021-07-07,1.79,427300
2021-07-08,1.77,298600
2021-07-09,1.87,182000
2021-07-12,1.89,125100
2021-07-13,1.84,164100
2021-07-14,1.8,303800
2021-07-15,1.7,264800
2021-07-16,1.62,378200
2021-07-19,1.59,369300
2021-07-20,1.62,210100
2021-07-21,1.72,187700
2021-07-22,1.7,68600
2021-07-23,1.7,158500
2021-07-26,1.7,108100
2021-07-27,1.66,135000
2021-07-28,1.65,193700
2021-07-29,1.73,110900
2021-07-30,1.68,164800
2021-08-02,1.58,90500
2021-08-03,1.65,130300
2021-08-04,1.59,69900
2021-08-05,1.59,118400
2021-08-06,1.65,179200
2021-08-09,1.71,124400
2021-08-10,1.73,208600
2021-08-11,1.73,165200
2021-08-12,1.71,84700
2021-08-13,1.61,84000
2021-08-16,1.64,209200
2021-08-17,1.55,287900
2021-08-18,1.62,179700
2021-08-19,1.55,320900
2021-08-20,1.63,218000
2021-08-23,1.69,294000
2021-08-24,1.76,301600
2021-08-25,1.82,246200
2021-08-26,1.78,123800
2021-08-27,1.81,177000
2021-08-30,1.81,204800
2021-08-31,1.81,86200
2021-09-01,1.78,109700
2021-09-02,1.83,158900
2021-09-03,1.86,127900
2021-09-07,1.82,120900
2021-09-08,1.84,78700
2021-09-09,1.8,27200
2021-09-10,1.83,109100
2021-09-13,1.87,141200
2021-09-14,1.79,212100
2021-09-15,1.95,272300
2021-09-16,1.99,320700
2021-09-17,1.94,164300
2021-09-20,1.91,231100
2021-09-21,1.94,105700
2021-09-22,1.99,281500
2021-09-23,2.07,251400
2021-09-24,2.06,199000
2021-09-27,2.08,560000
2021-09-28,2.16,660000
2021-09-29,2.02,541400
2021-09-30,2.19,327400
2021-10-01,2.28,687200
2021-10-04,2.55,1233200
2021-10-05,2.76,1616300
2021-10-06,2.91,1066600
2021-10-07,3.04,1385200
2021-10-08,3.18,1231100
2021-10-11,3.19,1798500
2021-10-12,2.88,1508600
2021-10-13,2.83,846500
2021-10-14,2.87,586700
2021-10-15,2.61,1053800
2021-10-18,2.57,840600
2021-10-19,2.51,693800
2021-10-20,2.79,807200
2021-10-21,2.64,487500
2021-10-22,2.66,280000
2021-10-25,2.82,560500
2021-10-26,2.77,480900
2021-10-27,2.67,233900